acc_x, acc_y, angular_z, stamp, 
-0.016585588455200195, -0.010903656482696533, 8.13021069546882e-07, 1791553279101440857
-0.014670133590698242, -0.007421314716339111, 1.0022287092850848e-06, 1791553279131183521
0.025341331958770752, 0.010847508907318115, 9.93880659781826e-07, 1791553279161177326
0.02534925937652588, -0.005267024040222168, 9.526223890991405e-07, 1791553279192469822
-0.00561147928237915, -0.007254481315612793, 9.479612051555691e-07, 1791553279223913929
-0.012566745281219482, 0.014879107475280762, 9.94464629299402e-07, 1791553279280998194
0.02680414915084839, 0.023716449737548828, 5.003014471071863e-11, 1791553279303646919
0.010209500789642334, -0.021477937698364258, 8.034478555102474e-11, 1791553279331056287
-0.008067429065704346, -0.001578688621520996, 1.2101415843612213e-11, 1791553279360956659
-0.024453938007354736, -0.012403666973114014, -1.7926022031182823e-11, 1791553279391059756
0.009818494319915771, 0.021687448024749756, -7.816984617842058e-12, 1791553279420921554
0.013644218444824219, -0.001659095287322998, -4.414596989451556e-12, 1791553279450844195
0.015016913414001465, -0.012984812259674072, -3.542287324117203e-12, 1791553279480857635
-0.009970605373382568, -0.003746628761291504, -2.2317246601102548e-11, 1791553279511500320
0.009864985942840576, 0.024892985820770264, -1.8371784878623204e-11, 1791553279542025731
0.013422906398773193, 0.01030588150024414, 1.0375441377464348e-06, 1791553279570749550
0.01888936758041382, -0.012827515602111816, 9.947363457859343e-07, 1791553279600709143
0.0023606419563293457, -0.005693316459655762, -4.3513665385987305e-11, 1791553279630689380
0.0183144211769104, -0.014455676078796387, -6.6710920796331e-11, 1791553279690618080
-0.023584365844726562, 0.007313907146453857, -7.393533402850799e-11, 1791553279780625609
-0.023482322692871094, -0.014184713363647461, -9.956455999292504e-07, 1791553279810560065
-0.007132470607757568, 0.011085867881774902, -3.879802615144337e-11, 1791553279840609617
0.037548840045928955, 0.00010776519775390625, -9.981733280928543e-07, 1791553279870467916
-0.020163118839263916, -0.014296531677246094, -4.490054345415009e-11, 1791553279900488553
-0.007541537284851074, 0.010915994644165039, -1.4235068052567936e-11, 1791553279930629831
0.010724484920501709, 0.02012038230895996, -9.96996802963251e-07, 1791553279960522221
0.017847418785095215, 0.0021210908889770508, -3.458441219033504e-11, 1791553279992526250
-0.004084765911102295, -0.012333989143371582, -1.0683989953826546e-06, 1791553280020421237
0.01011204719543457, 0.003928720951080322, 5.357289036139554e-12, 1791553280050293324
-0.009432673454284668, 0.005712747573852539, -9.929122816380462e-07, 1791553280110272473
0.0030820369720458984, 0.005609273910522461, -7.420465051809909e-07, 1791553280180455097
-0.005265235900878906, -0.013831734657287598, 8.54465406129847e-12, 1791553280250164181
-0.011747181415557861, 0.00811779499053955, -3.745876146162153e-11, 1791553280340163828
0.024271130561828613, 0.031207740306854248, -5.869475216096255e-11, 1791553280370020294
0.008035480976104736, 0.004240214824676514, -3.5581483252711915e-11, 1791553280430196574
-0.01899474859237671, 0.004392564296722412, -3.7460592945303443e-11, 1791553280459927144
0.0042365193367004395, 0.007769525051116943, -1.041479787904398e-11, 1791553280509997279
0.0006557106971740723, -0.019258737564086914, 2.0662281268295265e-05, 1791553280553270191
-0.0030663609504699707, 0.003533780574798584, 0.0010248762031274047, 1791553280578830656
-0.8358176946640015, 0.5242224931716919, 0.1105349754030566, 1791553280609885999
0.08185160160064697, 0.17821991443634033, 0.5020446588524835, 1791553280639792058
0.22795993089675903, 0.40474480390548706, 0.6081750235743573, 1791553280669703478
-0.08983945846557617, -0.31627392768859863, 0.5659014041959687, 1791553280699951358
-0.05816340446472168, -0.19360536336898804, 0.5237570991135738, 1791553280729935438
0.022574961185455322, -0.02469581365585327, 0.5050078391277214, 1791553280799582707
0.05668938159942627, -0.12993258237838745, 0.5172997022631987, 1791553280829797324
-0.33622997999191284, 0.22084790468215942, 0.472059699322025, 1791553280909653228
0.2511192560195923, -0.07805395126342773, 0.49180020730845797, 1791553280939412494
-0.06671899557113647, -0.11114847660064697, 0.5191572497402148, 1791553280969407183
-0.02800583839416504, 0.22160112857818604, 0.4824983442312913, 1791553281001226784
-0.01754695177078247, 0.06363582611083984, 0.4701895700327404, 1791553281033182440
-0.14671140909194946, -0.20291811227798462, 0.5639246688620582, 1791553281059443359
0.16381025314331055, 0.10000574588775635, 0.4226235597423951, 1791553281112853993
-0.05121105909347534, 0.06554853916168213, 0.5779571753453157, 1791553281138818828
-0.3336822986602783, 0.05206596851348877, 0.4933153253939265, 1791553281169194791
0.01866316795349121, 0.0022459030151367188, 0.5089040588060652, 1791553281199183265
-0.04955708980560303, -0.1347985863685608, 0.4990818447066642, 1791553281229107091
0.2813940644264221, -0.035524725914001465, 0.4932613569218927, 1791553281259190219
0.14672160148620605, 0.13179045915603638, 0.5035230857531836, 1791553281289120265
0.4433385729789734, 0.002452850341796875, 0.5002604155549303, 1791553281321510448
-0.15333807468414307, -0.14288246631622314, 0.532614692585333, 1791553281351437175
0.313546359539032, -0.13451719284057617, 0.5202172897331, 1791553281379160656
0.025254905223846436, -0.09784775972366333, 0.4156983976281353, 1791553281431570935
-0.17880016565322876, -0.040682077407836914, 0.5288706600845916, 1791553281469088306
0.06610482931137085, 0.029738008975982666, 0.49549899534378883, 1791553281528865858
-0.06538993120193481, -0.09282845258712769, 0.48659989984172053, 1791553281559835542
-0.059245944023132324, 0.0416182279586792, 0.5157097918681556, 1791553281591068615
0.06340032815933228, 0.1516193151473999, 0.6246840557936377, 1791553281617827992
0.2493332028388977, -0.10722637176513672, 0.513680075209227, 1791553281648725825
0.07938563823699951, 0.011899948120117188, 0.5250738328220763, 1791553281698646908
0.10142827033996582, 0.16581040620803833, 0.49254116847938473, 1791553281737806874
-0.005533337593078613, -0.09724777936935425, 0.44842879816172165, 1791553281769065122
-0.14648544788360596, -0.08048200607299805, 0.4271966941366636, 1791553281800855046
-0.23752456903457642, 0.04578596353530884, 0.4653939432597024, 1791553281831061434
-0.11487674713134766, 0.126365065574646, 0.5659897349985259, 1791553281858542670
-0.3277481198310852, -0.05996423959732056, 0.5093798210442074, 1791553281928944463
0.17564678192138672, -0.02265077829360962, 0.47442871278926046, 1791553281961059139
-0.14929437637329102, 0.1155213713645935, 0.5620636286394763, 1791553281998459126
0.24491775035858154, -0.1262814998626709, 0.5001023147097314, 1791553282028618083
-0.2575920820236206, 0.19623035192489624, 0.4430779826505889, 1791553282089114601
-0.06317543983459473, 0.09780639410018921, 0.45092131930628915, 1791553282121018692
-0.01881355047225952, 0.019836723804473877, 0.5330964917490131, 1791553282148331427
0.1222715973854065, 0.23073667287826538, 0.5035156781957554, 1791553282178221212
0.06179463863372803, 0.048470139503479004, 0.7776383177418209, 1791553282238391627
0.13805991411209106, 0.331045925617218, 0.7757306128280405, 1791553282268374317
-0.250734806060791, -0.2645675539970398, 0.8002685470584229, 1791553282298114779
-0.22879302501678467, 0.17437279224395752, 0.8069293007656383, 1791553282328642743
0.4448375701904297, -0.1729235053062439, 0.8724903096950489, 1791553282388033890
-0.16345739364624023, 0.022755086421966553, 0.7514005417913823, 1791553282418161985
0.16320586204528809, 0.13924849033355713, 0.7439939933483477, 1791553282447979254
-0.02475076913833618, 0.03528183698654175, 0.7647564793852525, 1791553282476943724
-0.0654982328414917, 0.0033944249153137207, 0.6815035198211404, 1791553282507934243
-0.1845341920852661, -0.01792806386947632, 0.7044593185157642, 1791553282537905252
-0.06253623962402344, 0.1901627779006958, 0.7510415482597893, 1791553282568660264
-0.02148115634918213, 0.1384919285774231, 0.7331479877311384, 1791553282601263864
0.19635438919067383, 0.0471000075340271, 0.919471688077363, 1791553282627882687
-0.48471856117248535, -0.12130701541900635, 0.8515557637749855, 1791553282656834305
-0.505199670791626, -0.010226309299468994, 0.78173841237155, 1791553282686802657
-0.15620183944702148, -0.5710701942443848, 0.64615747236143, 1791553282717873179
-0.27774304151535034, -0.11743640899658203, 0.4195981992810588, 1791553282746827747
0.035322487354278564, 0.08711397647857666, 0.31091858250652715, 1791553282776863013
0.21125733852386475, 0.14286953210830688, 0.30764870970101676, 1791553282808745995
0.42534351348876953, 0.1958412528038025, 0.40247705174451986, 1791553282840667877
-0.09248512983322144, 0.01552581787109375, 0.5558933513425406, 1791553282866821460
0.042709290981292725, -0.12942898273468018, 0.4656676598830344, 1791553282897585067
-0.24281299114227295, -0.01120680570602417, 0.47993547277612447, 1791553282927623614
-0.06045717000961304, 0.10122472047805786, 0.48267726922948506, 1791553282957580094
0.04446285963058472, 0.0461573600769043, 0.47208636613513105, 1791553282987554905
0.02733522653579712, 0.06165438890457153, 0.46864715279235414, 1791553283017623226
-0.09213316440582275, 0.06539696455001831, 0.45599223326341437, 1791553283049272798
0.06152313947677612, -0.25222206115722656, 0.4417723914560595, 1791553283081247800
-0.09901171922683716, 0.05494499206542969, 0.5452937335992354, 1791553283107583777
-0.2647058367729187, 0.28418952226638794, 0.5054927447834402, 1791553283137530115
-0.1116597056388855, 0.03551524877548218, 0.5067214044519741, 1791553283167474999
0.6028465032577515, -0.1253475546836853, 0.4881070365011459, 1791553283197445096
-0.4771350622177124, 0.09793800115585327, 0.48389789606805395, 1791553283227378794
0.16516447067260742, 0.058503568172454834, 0.49591457750555706, 1791553283257468955
-0.02426326274871826, -0.2032848596572876, 0.4857852468238466, 1791553283288738414
0.011043250560760498, 0.06463205814361572, 0.5087602499694969, 1791553283318839268
-0.1583351492881775, 0.139032781124115, 0.5132519157474692, 1791553283347743820
0.03947347402572632, -0.12809646129608154, 0.4925631050405415, 1791553283377531458
-0.08611786365509033, -0.056743502616882324, 0.5082336298198926, 1791553283407349204
0.022641003131866455, 0.24687492847442627, 0.49311191480831823, 1791553283437396461
0.1601141095161438, -0.06286269426345825, 0.483555982296935, 1791553283467370336
-0.22088462114334106, -0.0983198881149292, 0.5256064557546246, 1791553283496812196
-0.06189149618148804, 0.2032117247581482, 0.5038243716822142, 1791553283528854461
0.015244007110595703, -0.015520989894866943, 0.5405456816178134, 1791553283587331500
0.11125481128692627, 0.15573722124099731, 0.5299976654298494, 1791553283617325452
0.1017829179763794, -0.17663532495498657, 0.5278206566098644, 1791553283647333686
0.18879705667495728, 0.03009629249572754, 0.5202729675836105, 1791553283667764426
-0.017319083213806152, 0.15362322330474854, 0.5370709588247674, 1791553283707503534
0.08320552110671997, 0.006285429000854492, 0.518008799299107, 1791553283737511284
-0.08025282621383667, -0.21407580375671387, 0.5138712987472276, 1791553283768790772
-0.05003762245178223, 0.26128965616226196, 0.5520336194370357, 1791553283798775805
0.31399351358413696, 0.060946762561798096, 0.566711862443412, 1791553283827367296
-0.20006465911865234, -0.2471703290939331, 0.538513959355791, 1791553283857300542
-0.045436322689056396, 0.0021599531173706055, 0.5593138862237297, 1791553283887248688
0.06421494483947754, -0.10040092468261719, 0.5822535276207376, 1791553283946550701
0.14930862188339233, 0.14295059442520142, 0.5781362622922961, 1791553283976951068
0.8981736302375793, 0.11295515298843384, 0.6186675245155662, 1791553284009145790
0.17956221103668213, 0.25058406591415405, 0.7904861465092197, 1791553284037088530
0.5771611928939819, 0.13954764604568481, 0.7743803414950909, 1791553284066435562
-0.5719625353813171, 0.08037954568862915, 0.7853847456785833, 1791553284096439343
-0.023445546627044678, -0.1281927227973938, 0.7866755216565982, 1791553284126631028
-0.33418983221054077, 0.07390713691711426, 0.7588193084217466, 1791553284156332081
-0.060385286808013916, -0.13522541522979736, 0.7495699193278877, 1791553284186358343
-0.22205698490142822, 0.30322110652923584, 0.7317387177882475, 1791553284215809868
0.06268900632858276, -0.1573723554611206, 0.6316255580737605, 1791553284248731069
0.0027551651000976562, 0.07923978567123413, 0.7664547698766758, 1791553284276226476
-0.12507903575897217, 0.3589121699333191, 0.7431606441955445, 1791553284306269458
-0.24460691213607788, -0.04939460754394531, 0.780790005180967, 1791553284336189886
-0.3069014549255371, 0.026632368564605713, 0.7613086105565514, 1791553284366167897
0.14061671495437622, 0.03293955326080322, 0.7517386947696111, 1791553284396104116
-0.1177176833152771, -0.06755369901657104, 0.7384576098944258, 1791553284425091898
-0.1445649266242981, 0.03508162498474121, 0.6349004942016836, 1791553284457247207
-0.006146430969238281, 0.13379168510437012, 0.5923185261831896, 1791553284489086578
-0.3833073377609253, -0.23606491088867188, 0.6606411193977136, 1791553284516052894
0.32419419288635254, 0.12179148197174072, 0.5600873388140957, 1791553284546018181
0.2711208462715149, 0.16940957307815552, 0.5349616083635397, 1791553284576035563
-0.2194475531578064, -0.14410525560379028, 0.535638517449836, 1791553284606016746
0.036073505878448486, 0.23959195613861084, 0.5670065159768979, 1791553284635999995
-0.14053475856781006, -0.007333993911743164, 0.5658326215237677, 1791553284666127363
-0.11864852905273438, 0.1406906247138977, 0.5316472430147747, 1791553284697208133
-0.07838976383209229, -0.1617962121963501, 0.5197400447123052, 1791553284728999563
0.12430077791213989, 0.18691504001617432, 0.6068153404485125, 1791553284755916401
-0.08432823419570923, 0.08068788051605225, 0.5263287642428941, 1791553284785745799
-0.0610806941986084, -0.20970052480697632, 0.5261568858291243, 1791553284815667337
0.05779576301574707, 0.16585177183151245, 0.5024198778221015, 1791553284845685501
0.1269451379776001, -0.0854712724685669, 0.4613956285990338, 1791553284875623171
-0.11764591932296753, 0.05313766002655029, 0.45335713574295483, 1791553284905654775
0.08730906248092651, 0.1853078007698059, 0.44311447138581805, 1791553284936772178
-0.014232158660888672, -0.16496503353118896, 0.43603540766511073, 1791553284969187780
0.22573810815811157, 0.22714334726333618, 0.5551803526095604, 1791553284995658617
-0.1694732904434204, 0.12237370014190674, 0.4902878526312413, 1791553285025530464
0.3632042407989502, 0.01428145170211792, 0.5134609233087625, 1791553285055551038
0.011405348777770996, 0.1784999966621399, 0.49736851237390595, 1791553285085518722
-0.05767780542373657, -0.19358056783676147, 0.4929779531104132, 1791553285115422343
0.08564507961273193, 0.060233473777770996, 0.5064300449436999, 1791553285145424111
0.17018723487854004, 0.11191731691360474, 0.44567142991411823, 1791553285177541062
0.013994574546813965, 0.003215610980987549, 0.4722408657423452, 1791553285208309869
0.2784332036972046, 0.20963925123214722, 0.5365446643076379, 1791553285235370425
-0.023504018783569336, -0.13934564590454102, 0.48749669978496696, 1791553285265284359
-0.20060741901397705, 0.2206173539161682, 0.47505226966621333, 1791553285295304172
-0.07593363523483276, -0.044917404651641846, 0.48548480524155496, 1791553285325270524
0.2571749687194824, 0.2887255549430847, 0.5126694884383873, 1791553285355205429
-0.18961238861083984, 0.162286639213562, 0.5000187985605313, 1791553285385153888
0.02710866928100586, -0.09172391891479492, 0.4935190315691278, 1791553285416311424
-0.06695431470870972, 0.1085999608039856, 0.5034219027265591, 1791553285446886929
0.07290202379226685, -0.10594654083251953, 0.536535364321611, 1791553285475094728
0.13990306854248047, 0.1147611141204834, 0.5074220464841755, 1791553285505006276
0.0847216248512268, 0.15309280157089233, 0.48198292697309864, 1791553285535036329
-0.0027170181274414062, 0.09130507707595825, 0.4933406403281774, 1791553285564951863
-0.05477631092071533, 0.020828306674957275, 0.4779938510791543, 1791553285595030236
-0.4214446544647217, -0.082927405834198, 0.48419241071627644, 1791553285625294676
-0.6771838068962097, 0.13069754838943481, 0.4822241420600911, 1791553285657128610
0.2067888379096985, -0.013580024242401123, 0.5100899124816572, 1791553285686982405
-0.1551527976989746, -0.03793388605117798, 0.5758421281818538, 1791553285713836474
0.2731168866157532, 0.03242039680480957, 0.4954022104913499, 1791553285743804214
-0.15057891607284546, 0.19767862558364868, 0.458685058639863, 1791553285774789032
0.0012693405151367188, 0.06597572565078735, 0.4637788036771708, 1791553285804759822
-0.10771632194519043, 0.06554150581359863, 0.469159948816085, 1791553285834738320
-0.3156003952026367, 0.0471382737159729, 0.4625354011460595, 1791553285865503325
-0.05052989721298218, 0.005945980548858643, 0.4764847794200217, 1791553285896989167
0.06813520193099976, 0.14929074048995972, 0.566235403557324, 1791553285924651399
0.7302372455596924, -0.04503542184829712, 0.5100954955152428, 1791553285954590102
-0.19897836446762085, -0.0252377986907959, 0.48299239320779885, 1791553285984567237
0.24823462963104248, 0.030064702033996582, 0.4696177164079871, 1791553286014524277
-0.0859495997428894, 0.17759943008422852, 0.4673322026452092, 1791553286044520403
0.058619141578674316, 0.03909635543823242, 0.47247449844537126, 1791553286074533882
-0.5851423740386963, -0.00016045570373535156, 0.49500898721453573, 1791553286105328136
-0.1306501030921936, -0.044228553771972656, 0.5005559814775452, 1791553286137253764
0.06559103727340698, 0.045238614082336426, 0.5861847612258658, 1791553286164462401
0.3477107882499695, 0.3150610327720642, 0.4957678618286656, 1791553286194448739
-0.034105777740478516, -0.0942487120628357, 0.4723574238243013, 1791553286224320691
0.010922491550445557, 0.102028489112854, 0.452176838921872, 1791553286254308260
-0.3205476403236389, -0.09277653694152832, 0.4625369491874891, 1791553286284545246
-0.4303630590438843, 0.19692862033843994, 0.5279906609226332, 1791553286314316049
-0.21957820653915405, 0.059945881366729736, 0.5386438767710506, 1791553286345164919
-0.19283020496368408, -0.16642141342163086, 0.516576282237787, 1791553286404276597
-0.11807554960250854, 0.10185062885284424, 0.44055865120457566, 1791553286434485102
-0.15664798021316528, 0.21015286445617676, 0.4541973779359243, 1791553286464131477
-0.443109929561615, -0.0981454849243164, 0.5091498904289035, 1791553286494104184
0.4405772089958191, 0.15702670812606812, 0.5455546439035301, 1791553286524102014
-0.18651652336120605, 0.08872151374816895, 0.5170930056770207, 1791553286554106213
-0.09889310598373413, 0.003780961036682129, 0.440093406914995, 1791553286585239644
-0.03574931621551514, 0.14618349075317383, 0.4431556023226135, 1791553286616851031
-0.41145461797714233, 0.1269155740737915, 0.5307181272111059, 1791553286644380351
0.22343003749847412, 0.1285439133644104, 0.5438581481108143, 1791553286674092824
-0.016063451766967773, 0.2674909234046936, 0.4595177554645275, 1791553286697443606
0.298309862613678, 0.30510133504867554, 0.5486948820119109, 1791553286733890918
0.13350391387939453, -0.062215447425842285, 0.453862136718587, 1791553286763858971
-0.15365338325500488, -0.003812849521636963, 0.4979892625697434, 1791553286792825162
-0.16839599609375, 0.08641445636749268, 0.4894375479497418, 1791553286825446105
0.19841307401657104, 0.14664626121520996, 0.5441092978593898, 1791553286856414470
0.8057641983032227, 0.09246569871902466, 0.5731712886289599, 1791553286883782433
0.042769014835357666, 0.04998284578323364, 0.45940655121988416, 1791553286913691731
-0.3143464922904968, -0.08742046356201172, 0.47163694542980694, 1791553286943644364
-0.1344507336616516, 0.4462295174598694, 0.47768292356582637, 1791553286973624066
-0.3256811499595642, -0.2076759934425354, 0.5435629275640679, 1791553287003602828
0.4184247851371765, 0.06516218185424805, 0.5219377778597408, 1791553287033615378
0.08619004487991333, 0.28804677724838257, 0.4504531096608059, 1791553287065299082
0.07620221376419067, 0.013505339622497559, 0.4475187162154307, 1791553287096460138
-0.030380547046661377, -0.0467413067817688, 0.5664228805752588, 1791553287123528486
0.6134158372879028, 0.035677433013916016, 0.5226782248701439, 1791553287153495971
-0.03049147129058838, 0.009174764156341553, 0.484813283053977, 1791553287183429401
0.19508785009384155, 0.04154866933822632, 0.46403791557939233, 1791553287213682422
0.06967872381210327, 0.23902779817581177, 0.4714765664069275, 1791553287243392028
-0.44381213188171387, -0.06371194124221802, 0.49367524804502483, 1791553287273387778
0.11136919260025024, -0.058809101581573486, 0.49982052655061965, 1791553287305261817
0.4084535241127014, 0.49858832359313965, 0.4905069445547077, 1791553287336159505
0.14077222347259521, -0.011744558811187744, 0.5202343932812301, 1791553287363354027
-0.38915371894836426, -0.15156418085098267, 0.48251379958757945, 1791553287393235575
-0.0501900315284729, 0.1319979429244995, 0.5007278206378438, 1791553287423208894
0.14588087797164917, 0.32532912492752075, 0.5200893602259504, 1791553287453203830
-0.3267362117767334, -0.2126644253730774, 0.5255905592188064, 1791553287483168818
0.001604318618774414, 0.26472437381744385, 0.488069370395356, 1791553287513121671
-0.3145332336425781, -0.1224745512008667, 0.4511385118757426, 1791553287545264949
0.35972583293914795, 0.003092944622039795, 0.5085742847180597, 1791553287575189144
-0.11550164222717285, 0.2458791732788086, 0.5435974455130672, 1791553287603054837
0.14366185665130615, 0.1328175663948059, 0.5004700261575683, 1791553287632979575
-0.354634165763855, -0.07459032535552979, 0.5039372058734093, 1791553287663005704
0.31685084104537964, -0.0010471940040588379, 0.4997285866822825, 1791553287692983013
-0.34490543603897095, 0.24924498796463013, 0.48218946451262823, 1791553287722954453
0.27135854959487915, 0.05190211534500122, 0.4760995350523121, 1791553287753466633
-0.19103986024856567, 0.21264398097991943, 0.4731137711224793, 1791553287785449963
0.09537595510482788, -0.19921010732650757, 0.5556002520121524, 1791553287812915773
0.12413656711578369, 0.18880939483642578, 0.4909247618672023, 1791553287842793126
0.1369268298149109, 0.13121837377548218, 0.4833689912273211, 1791553287872761934
-0.006143689155578613, 0.14088690280914307, 0.5019869945526835, 1791553287902777357
-0.3972323536872864, -0.054929256439208984, 0.5203025765353547, 1791553287932738366
0.2508559823036194, -0.004957377910614014, 0.5000567701393881, 1791553287962734127
-0.13361632823944092, 0.01855236291885376, 0.4917277795558378, 1791553287992917916
-0.017277419567108154, 0.25371867418289185, 0.47841224274147753, 1791553288025085469
-0.3251546621322632, -0.0041730403900146484, 0.5838317040209009, 1791553288052686945
0.08162683248519897, 0.0021834373474121094, 0.5250279195541449, 1791553288082595022
0.05268627405166626, -0.04143327474594116, 0.507046926343083, 1791553288111831427
-0.35322368144989014, 0.2006567120552063, 0.5055757284429647, 1791553288142518988
-0.45972108840942383, -0.04225260019302368, 0.5070220946691606, 1791553288172517201
0.12129521369934082, 0.13228470087051392, 0.48061425931624585, 1791553288202508516
-0.20206063985824585, 0.12190067768096924, 0.48846418644327655, 1791553288233380691
0.3669114112854004, -0.07838356494903564, 0.478363319905586, 1791553288265255018
-0.38179171085357666, 0.07427728176116943, 0.5615054727659273, 1791553288292441293
0.15844571590423584, 0.0030031800270080566, 0.48781196406174854, 1791553288322359001
0.026762545108795166, 0.08431893587112427, 0.4777673057495867, 1791553288352302484
0.048353374004364014, 0.1350003480911255, 0.4920728664486077, 1791553288382330693
-0.33034777641296387, 0.08811485767364502, 0.4868924673778535, 1791553288412281358
-0.061733901500701904, -0.003982245922088623, 0.47981941319189747, 1791553288442272270
-0.31773120164871216, 0.02303844690322876, 0.4826560568061109, 1791553288472985535
0.054372429847717285, 0.04092979431152344, 0.46283480504625596, 1791553288505003265
-0.175603985786438, 0.009562790393829346, 0.539095627540233, 1791553288532197450
-0.1749522089958191, -0.013968110084533691, 0.4824378305108482, 1791553288562183778
0.28109902143478394, 0.17106002569198608, 0.47149558078201437, 1791553288592166738
-0.5032378435134888, -0.05885791778564453, 0.4905731623432055, 1791553288622116356
-0.0007954239845275879, -0.12258440256118774, 0.5036852988417525, 1791553288652079368
-0.21529161930084229, 0.46479225158691406, 0.49882626236309613, 1791553288681299892
-0.22508132457733154, -0.15054142475128174, 0.4747707379498959, 1791553288712918820
0.22775906324386597, -0.05232977867126465, 0.47690732897227855, 1791553288745774278
-0.07604914903640747, 0.4999299645423889, 0.5596748254342335, 1791553288772533296
-0.21230429410934448, -0.208601713180542, 0.48656440419543395, 1791553288802568114
0.3070943355560303, -0.07567709684371948, 0.49665099255396983, 1791553288832550059
0.09288716316223145, 0.4186423420906067, 0.48422869131360063, 1791553288862525885
-0.00909113883972168, 0.0355989933013916, 0.45991725055301935, 1791553288892477183
-0.4063321352005005, -0.07940727472305298, 0.5148730310349683, 1791553288920801870
0.036615192890167236, 0.13362687826156616, 0.47671147433427696, 1791553288953273083
-0.2122209072113037, 0.21188658475875854, 0.46354899464812127, 1791553288985007956
-0.5924846529960632, -0.1486988663673401, 0.5407840989676815, 1791553289011709377
0.2690041661262512, 0.006323575973510742, 0.5083722806548032, 1791553289041629812
-0.08194440603256226, 0.36218762397766113, 0.5070589253881664, 1791553289071682944
0.5740952491760254, 0.35293257236480713, 0.5034897731234523, 1791553289101632589
-0.27396196126937866, -0.1855677366256714, 0.5223336463617108, 1791553289131787442
-0.009744405746459961, 0.19278591871261597, 0.5345531090719241, 1791553289161555004
-0.29336416721343994, 0.49445486068725586, 0.4708254129610253, 1791553289193671235
-0.38345062732696533, -0.4133128523826599, 0.49609751379020667, 1791553289223972882
0.6198145747184753, 0.3408898115158081, 0.5668534103160962, 1791553289251518859
-0.2949281334877014, 0.4637671709060669, 0.5002298663633279, 1791553289281396724
-0.15146058797836304, -0.7036973834037781, 0.49110971367209616, 1791553289311485500
0.2639230489730835, 0.274421751499176, 0.532740116046958, 1791553289341441400
-0.30033981800079346, 0.4377477169036865, 0.5183216826067256, 1791553289371454601
0.3482179641723633, -0.09970098733901978, 0.5029205472793641, 1791553289400312914
0.07489663362503052, -0.026952803134918213, 0.44248473236189867, 1791553289433583110
0.5023471117019653, 0.2467060685157776, 0.4822525566093251, 1791553289463362776
-0.11138993501663208, -0.03752487897872925, 0.5200917846120533, 1791553289491400933
-0.31185489892959595, -0.0338289737701416, 0.5021964128863875, 1791553289521204453
-0.434140682220459, 0.27172452211380005, 0.47518850908355637, 1791553289571161032
0.15217983722686768, -0.09717714786529541, 0.5026770596915515, 1791553289611132983
-0.3705071210861206, 0.4437732696533203, 0.5075281664928037, 1791553289641491357
0.12439107894897461, -0.02950376272201538, 0.4786019062133119, 1791553289673275538
0.12192481756210327, 0.03354024887084961, 0.49807772720063903, 1791553289703506667
0.36116838455200195, 0.09895813465118408, 0.5343892358727141, 1791553289771019158
-0.017120659351348877, 0.044049620628356934, 0.4983525056480971, 1791553289801012268
-0.06418263912200928, 0.17240965366363525, 0.5344922031697814, 1791553289860927793
-0.1300053596496582, -0.0468367338180542, 0.4605937352648255, 1791553289891114556
0.036190032958984375, 0.026260077953338623, 0.4965674792818997, 1791553289921083454
0.6299680471420288, 0.2789192199707031, 0.536732613091095, 1791553289949813846
-0.11422717571258545, 0.33767765760421753, 0.46971306611531133, 1791553289980769485
-0.2743302583694458, -0.40902990102767944, 0.5018917391436793, 1791553290010780473
0.0410197377204895, 0.42335838079452515, 0.49602513853321895, 1791553290041061932
0.18168401718139648, 0.14043128490447998, 0.46733831354521516, 1791553290073072382
0.40396207571029663, -0.23729276657104492, 0.5464125455352008, 1791553290100729723
-0.1322597861289978, 0.7115660905838013, 0.5160180639146575, 1791553290130632242
0.41495829820632935, 0.0696713924407959, 0.5334608857496866, 1791553290160656886
-0.42477238178253174, 0.6500363945960999, 0.5047059529270584, 1791553290220532069
0.5403327941894531, 0.42519062757492065, 0.5021390983880092, 1791553290300446493
-0.08803564310073853, -0.16287684440612793, 0.4846551448661006, 1791553290330466524
-0.08742833137512207, -0.046553194522857666, 0.5122084729266282, 1791553290360078110
-0.0862419605255127, 0.40994590520858765, 0.4439074892075019, 1791553290392064932
0.33893948793411255, -0.12947416305541992, 0.4826062418547418, 1791553290420356741
-0.019118070602416992, 0.047288477420806885, 0.48396493993934553, 1791553290450377632
-0.08132225275039673, 0.5603501200675964, 0.47186252781313975, 1791553290480319295
-0.022430062294006348, 0.10507124662399292, 0.5028800289009105, 1791553290540225247
0.2594967484474182, 0.25503236055374146, 0.47923235022006844, 1791553290570404529
0.03836268186569214, 0.03459823131561279, 0.48788183282078884, 1791553290601493782
-0.09706950187683105, 0.06763404607772827, 0.4679182562547422, 1791553290633320116
0.22405707836151123, 0.18985837697982788, 0.4949050708782164, 1791553290690699252
-0.6293184161186218, 0.15743976831436157, 0.5200308973979252, 1791553290720167438
0.38089102506637573, -0.06917035579681396, 0.5228682167532088, 1791553290750149519
-0.3417041301727295, 0.5665086507797241, 0.5019057171455201, 1791553290780007620
-0.2533177137374878, -0.15073347091674805, 0.4871912166109967, 1791553290810000869
-0.02573460340499878, 0.09423315525054932, 0.4762106612713069, 1791553290841633109
0.44150620698928833, 0.13587164878845215, 0.46616404774677145, 1791553290873270559
-0.18071973323822021, 0.42179638147354126, 0.5852147369295485, 1791553290900104756
-0.029793858528137207, -0.06614816188812256, 0.5266650412886082, 1791553290929913435
-0.26437199115753174, -0.38282138109207153, 0.4901516913667242, 1791553290959863404
-0.5560613870620728, 0.20480692386627197, 0.479086495648022, 1791553291020074153
0.2725304365158081, -0.5956888198852539, 0.527788165250586, 1791553291049752921
-0.037911415100097656, 0.8641176819801331, 0.5015510227646462, 1791553291081081167
-0.36759817600250244, -0.28058499097824097, 0.5578443082487338, 1791553291139728871
0.27752822637557983, 0.25129562616348267, 0.49142005979396214, 1791553291169627775
-0.05991542339324951, -0.2547043561935425, 0.5526281026777411, 1791553291219684411
-0.3503551483154297, 0.30937737226486206, 0.5037159104332328, 1791553291279541455
0.520061194896698, -0.12286186218261719, 0.4969959491950436, 1791553291309545375
-0.23977923393249512, 0.1819353699684143, 0.4852114928151909, 1791553291339466454
-0.19426339864730835, 0.3285136818885803, 0.480351501059362, 1791553291369594396
0.4185677170753479, 0.2705402970314026, 0.44813072328669984, 1791553291433056132
0.6899853348731995, 0.022883892059326172, 0.5685309742108557, 1791553291459400849
0.3094061017036438, 0.1013258695602417, 0.4875782586574495, 1791553291529692634
-0.3609693646430969, 0.3179181218147278, 0.47776731952226265, 1791553291562040352
0.45174282789230347, -0.0753854513168335, 0.5259767780229817, 1791553291591630761
-0.22816085815429688, 0.01383817195892334, 0.5714052485565101, 1791553291619460621
0.2483559250831604, 0.0985572338104248, 0.5456638145766594, 1791553291649183459
-0.05800431966781616, 0.389604389667511, 0.500870942153644, 1791553291679171467
-0.08815479278564453, -0.3796606659889221, 0.493667534287049, 1791553291739159760
-0.2982277274131775, 0.41817569732666016, 0.4781317509996625, 1791553291769428784
-0.10707604885101318, 0.50099778175354, 0.4609627493348958, 1791553291801395675
-0.3228498697280884, -0.16104602813720703, 0.5271857119229192, 1791553291829213250
0.30973219871520996, -0.23783081769943237, 0.47494654252249974, 1791553291858958735
0.14194804430007935, 0.42753857374191284, 0.48526909456240974, 1791553291888922367
-0.48326176404953003, 0.3397960066795349, 0.4987273517448572, 1791553291918918917
0.20386797189712524, 0.005722939968109131, 0.5180102940450132, 1791553291949031113
-0.5774706602096558, 0.04531145095825195, 0.5074886740842726, 1791553291978873628
0.6578392386436462, -0.09087848663330078, 0.49369350644950105, 1791553292008839176
-0.22827273607254028, 0.5830625891685486, 0.43425579173475176, 1791553292041389061
-0.1409100890159607, -0.08118832111358643, 0.547762206865634, 1791553292067824878
0.1505613923072815, 0.2028406262397766, 0.49004177424964424, 1791553292098738440
0.2949379086494446, 0.0102769136428833, 0.5074082242556589, 1791553292128732607
-0.10521906614303589, -0.26550185680389404, 0.4652498517861266, 1791553292188662424
0.5493332147598267, 0.322071373462677, 0.49479263803064333, 1791553292218665941
-0.5110809803009033, -0.05776458978652954, 0.4961812989080613, 1791553292249159237
0.47225528955459595, 0.0834396481513977, 0.47278265163702377, 1791553292281317778
-0.4849432110786438, 0.35062581300735474, 0.5299722114761719, 1791553292308543330
0.2526589035987854, -0.031487226486206055, 0.508250407661784, 1791553292337616141
-0.3428117632865906, 0.033537089824676514, 0.5303266914269154, 1791553292367531147
0.6229488849639893, 0.13488256931304932, 0.5275709275567607, 1791553292398446663
0.7845064997673035, 0.09792304039001465, 0.5218245830617715, 1791553292458519639
0.38554054498672485, 0.3923534154891968, 0.512441516070654, 1791553292489204995
0.13144755363464355, -0.002221524715423584, 0.5789580185879836, 1791553292548331521
-0.15533095598220825, 0.35559260845184326, 0.49692040133475296, 1791553292578347936
-0.5362220406532288, -0.18751847743988037, 0.5160598359608554, 1791553292638547903
0.29406219720840454, -0.05269545316696167, 0.4972408245021098, 1791553292668270372
-0.5069713592529297, -0.17053526639938354, 0.467420062518103, 1791553292698455911
0.5926581621170044, 0.010419249534606934, 0.4508960297189692, 1791553292729175364
-0.14091408252716064, 0.500197172164917, 0.4775090593504954, 1791553292761366785
-0.19000524282455444, 0.028608858585357666, 0.5854806519414597, 1791553292788367926
-0.6608672142028809, 0.18398290872573853, 0.5010081222031268, 1791553292818316949
0.06186950206756592, 0.022466182708740234, 0.43067576655669726, 1791553292841235542
0.07622158527374268, 0.0021921396255493164, 0.5053428781596062, 1791553292908341393
-0.18253719806671143, 0.09269469976425171, 0.4941627949932208, 1791553292938408287
-0.1205480694770813, 0.15370815992355347, 0.48134880009187453, 1791553292969710644
-0.04273343086242676, -0.17143601179122925, 0.5626310934419871, 1791553293028278428
0.18333488702774048, 0.4555346369743347, 0.4575747598211747, 1791553293088260787
0.6792397499084473, 0.058382391929626465, 0.4453867698729753, 1791553293118046501
0.15915149450302124, 0.39901840686798096, 0.5276921715602235, 1791553293177937097
-0.5996145009994507, -0.48777198791503906, 0.49992787904369423, 1791553293209479757
-0.14371371269226074, 0.5127887725830078, 0.552431300060102, 1791553293268008156
0.006516873836517334, 0.2678484320640564, 0.5044005578016025, 1791553293327936543
-0.32573288679122925, 0.13397127389907837, 0.4892480269832729, 1791553293358118586
0.21879428625106812, -0.33529025316238403, 0.4765739947020295, 1791553293387935149
-0.5798711180686951, 0.26820266246795654, 0.47236928736107536, 1791553293417868395
0.5900557041168213, 0.30234575271606445, 0.4782172739652035, 1791553293449407264
0.06108379364013672, 0.26891589164733887, 0.45218585513760234, 1791553293481131344
-0.48043298721313477, -0.10509353876113892, 0.52837908967615, 1791553293507990317
0.06412911415100098, 0.1870991587638855, 0.5063261235223124, 1791553293538065779
0.0016192793846130371, 0.27500689029693604, 0.5160886750073899, 1791553293568144347
-0.28018051385879517, -0.16015827655792236, 0.49517168158762226, 1791553293596842948
0.016202926635742188, 0.27866339683532715, 0.4841396825380714, 1791553293627900566
-0.3151605725288391, 0.02715897560119629, 0.5098403195002748, 1791553293657883707
0.25010842084884644, 0.3343885540962219, 0.47123794771458205, 1791553293690432549
-0.27754002809524536, 0.26404088735580444, 0.5820463733196269, 1791553293717195608
-0.3312137722969055, -0.18706047534942627, 0.4928083263212388, 1791553293748152013
0.5335618257522583, 0.12306326627731323, 0.5139632544038888, 1791553293778001508
-0.01903355121612549, 0.08404034376144409, 0.4879328747825401, 1791553293807988271
0.14675503969192505, -0.025715649127960205, 0.49385799855890467, 1791553293867266387
0.01978600025177002, 0.7512112855911255, 0.49508579490948385, 1791553293897357282
-0.3870077133178711, -0.16829341650009155, 0.544003835778186, 1791553293957083091
-0.0618666410446167, 0.17578935623168945, 0.5080034846852957, 1791553293987081999
-0.49108684062957764, -0.20602518320083618, 0.5302636868914619, 1791553294016912883
-0.0028527379035949707, -0.2976610064506531, 0.523785625174606, 1791553294046857436
0.14640164375305176, 0.1425565481185913, 0.5008784966146438, 1791553294076851057
-0.48654818534851074, 0.17320948839187622, 0.46637982302286735, 1791553294107320058
0.5852961540222168, 0.4307516813278198, 0.47438304381582036, 1791553294137622950
-0.12398511171340942, 0.33084142208099365, 0.4613020586545852, 1791553294169201440
0.005210518836975098, -0.04901623725891113, 0.5774971231935176, 1791553294195816614
-0.010355114936828613, 0.05513465404510498, 0.5096760515391873, 1791553294225837164
-0.08109831809997559, 0.014051496982574463, 0.4915444287148144, 1791553294256657843
0.11154323816299438, -0.07491117715835571, 0.45311750893268826, 1791553294286688181
0.043917179107666016, 0.06748449802398682, 0.4830218678088105, 1791553294346637075
-0.15395194292068481, 0.1351274847984314, 0.4773044451462283, 1791553294409379949
0.21308857202529907, -0.02588576078414917, 0.44628114125387697, 1791553294489395851
0.37833625078201294, -0.045741260051727295, 0.4996416713361769, 1791553294516971787
-0.5018979907035828, -0.04481494426727295, 0.486508775461438, 1791553294546493177
0.5911155939102173, 0.43543756008148193, 0.5155288981240576, 1791553294576402969
-0.35928261280059814, 0.2558528184890747, 0.5233353695362051, 1791553294636425509
0.19615215063095093, 0.23418492078781128, 0.526797101666272, 1791553294666682822
-0.14595025777816772, 0.38054823875427246, 0.4913629364918166, 1791553294729634013
-0.3987111449241638, -0.06233912706375122, 0.5503512741706676, 1791553294766445316
0.4077688455581665, 0.5039812922477722, 0.5168993340880952, 1791553294796446579
0.2828202247619629, 0.11100876331329346, 0.5086970398460634, 1791553294826158961
-0.20893710851669312, 0.16039276123046875, 0.43943511607567665, 1791553294857865625
-0.09556561708450317, 0.0752297043800354, 0.43448134506837494, 1791553294889634895
-0.09772372245788574, 0.28715622425079346, 0.5401629685614832, 1791553294916147244
-0.106864333152771, 0.18603646755218506, 0.48210296756734083, 1791553294946054994
0.47513800859451294, -0.07922887802124023, 0.4901386225113882, 1791553294976012469
-0.04681640863418579, 0.24507075548171997, 0.4971583983765959, 1791553295006013638
0.28551185131073, 0.14075195789337158, 0.48840314024188, 1791553295036326885
-0.21640294790267944, 0.21127599477767944, 0.500038463617186, 1791553295097440911
0.3718940019607544, 0.17239391803741455, 0.5005078584929875, 1791553295128941460
-0.38862138986587524, 0.057173967361450195, 0.5529416112139365, 1791553295156250115
0.14314353466033936, -0.037992238998413086, 0.5183810889711599, 1791553295184874180
-0.1726166009902954, 0.41469454765319824, 0.5019453302984506, 1791553295236378414
-0.15705543756484985, -0.11459571123123169, 0.5200124110030362, 1791553295314930717
0.1953125, 0.014882981777191162, 0.513993533478595, 1791553295375708937
0.011060655117034912, -0.17913800477981567, 0.48406365254029404, 1791553295417381050
-0.05931204557418823, 0.18489772081375122, 0.4848825124533066, 1791553295448140233
0.33987414836883545, -0.05745899677276611, 0.537759243507527, 1791553295475504971
-0.1060289740562439, -0.23390746116638184, 0.4868660064330094, 1791553295505476892
-0.05279594659805298, 0.45393168926239014, 0.4735822306947194, 1791553295535461143
0.10770785808563232, 0.1516931653022766, 0.4791882341415759, 1791553295565435293
0.44473564624786377, -0.11827051639556885, 0.48038985449291705, 1791553295595381839
-0.16277223825454712, 0.18837600946426392, 0.47771222910719535, 1791553295625441423
0.40518391132354736, 0.29145705699920654, 0.4578765176913604, 1791553295656825829
0.2349948287010193, 0.30381906032562256, 0.4773326527660119, 1791553295687423737
-0.2598024606704712, -0.1405409574508667, 0.5354640502782952, 1791553295715344283
0.14048177003860474, 0.7454390525817871, 0.516643887183913, 1791553295745257056
0.39696770906448364, 0.10956436395645142, 0.5229899791739283, 1791553295775217508
0.07039284706115723, -0.2659319043159485, 0.5258935707387244, 1791553295805248716
0.509888231754303, 0.900707483291626, 0.5223391356738639, 1791553295835425058
0.21917009353637695, 0.010464370250701904, 0.5038684764811497, 1791553295865622617
-0.13878583908081055, -0.16930675506591797, 0.45802644268124637, 1791553295897418263
-0.41315990686416626, 0.833673357963562, 0.5122743149415091, 1791553295925096467
-0.09211862087249756, -0.1806010603904724, 0.4686733904122648, 1791553295955042008
-0.10995906591415405, -0.09939450025558472, 0.4659847983774833, 1791553295985036190
-0.38842034339904785, 0.6267774701118469, 0.48824911288071904, 1791553296015059185
-0.7776399850845337, -0.11757045984268188, 0.5164716826579175, 1791553296044947616
-0.2123543620109558, 0.06433993577957153, 0.50188976826499, 1791553296074969941
-0.47584569454193115, 0.41895705461502075, 0.4719652068483787, 1791553296105953580
-0.28390002250671387, -0.30572980642318726, 0.45429140083195607, 1791553296137696188
0.02309584617614746, 0.4051207900047302, 0.5404572991124273, 1791553296164877552
0.4909193515777588, 0.014118731021881104, 0.520079972711015, 1791553296193849024
0.3530504107475281, 0.05196404457092285, 0.47640246929752217, 1791553296224784823
-0.42945289611816406, 0.30195122957229614, 0.49283131244678074, 1791553296254743355
0.5301511883735657, -0.10200703144073486, 0.4971566378262128, 1791553296284713526
0.3474871516227722, -0.15030992031097412, 0.49300827486533494, 1791553296314691777
0.2846202254295349, 0.3814502954483032, 0.5129071223170545, 1791553296344548974
0.3079566955566406, -0.17310822010040283, 0.4774088878897242, 1791553296377710116
-0.016518354415893555, -0.04297274351119995, 0.5787826856568992, 1791553296404678631
-0.2769696116447449, 0.3854699730873108, 0.5244880510853894, 1791553296434574440
0.4441819190979004, -0.15268105268478394, 0.45423930236324367, 1791553296457425589
0.5042965412139893, 0.10175228118896484, 0.5374863922005333, 1791553296494626552
-0.35322993993759155, 0.2692328095436096, 0.48040999299584125, 1791553296524515032
-0.350661039352417, -0.19174957275390625, 0.4818463207265201, 1791553296554494379
-0.8222478032112122, 0.16442179679870605, 0.4818910317391601, 1791553296585599350
-0.268852174282074, 0.3279905915260315, 0.46164326923906607, 1791553296617932184
0.4619046449661255, 0.03582495450973511, 0.5552192095287337, 1791553296644545240
-0.15529495477676392, -0.24717259407043457, 0.4975869704814379, 1791553296673678385
-0.46425145864486694, 0.4305000305175781, 0.4993722908411961, 1791553296704497255
-0.357211709022522, 0.3439781069755554, 0.4950682503782377, 1791553296734497474
0.2328067421913147, -0.0753217339515686, 0.5066029515526361, 1791553296764289975
-0.18333357572555542, 0.1273043155670166, 0.5077282261022263, 1791553296794230887
-0.48818641901016235, 0.28794270753860474, 0.46005989473456793, 1791553296825907186
0.35888075828552246, -0.010369837284088135, 0.45952444641176154, 1791553296856964268
0.05602240562438965, -0.0554196834564209, 0.5334656938947799, 1791553296884235295
0.13329941034317017, 0.25664710998535156, 0.48542187517497526, 1791553296914133560
0.0347139835357666, 0.1323472261428833, 0.4631385927230839, 1791553296944099529
-0.22553110122680664, 0.017677724361419678, 0.4720409275777596, 1791553296974035428
-0.4001314640045166, 0.12671267986297607, 0.5004774411974187, 1791553297004060591
0.3834763169288635, -0.2675837278366089, 0.5173901392813207, 1791553297034047809
-0.39991652965545654, 0.1109573245048523, 0.49916338740147903, 1791553297066212882
-0.07951241731643677, -0.11989325284957886, 0.5129259769674569, 1791553297096623478
0.1450297236442566, 0.1621924638748169, 0.5681840581690636, 1791553297123983069
0.4078484773635864, -0.04224127531051636, 0.522875346781162, 1791553297153936948
-0.033341288566589355, 0.15071457624435425, 0.5113403484302457, 1791553297183869390
-0.5521358251571655, 0.18670278787612915, 0.49962427344425875, 1791553297212813974
0.179593026638031, -0.19251704216003418, 0.46371226979668223, 1791553297243852445
0.14574837684631348, 0.2654793858528137, 0.5165671650272979, 1791553297272812501
-0.4724578261375427, 0.0005090832710266113, 0.45211083234998795, 1791553297305662032
-0.33537811040878296, 0.3645547032356262, 0.506048471173687, 1791553297336299781
0.028049886226654053, 0.04237920045852661, 0.5354497387851593, 1791553297363743473
0.46903783082962036, 0.40657341480255127, 0.48841396511172236, 1791553297393693083
0.39740580320358276, 0.06790304183959961, 0.5191371902982498, 1791553297423617866
-0.2351289987564087, 0.16322529315948486, 0.4914425405179631, 1791553297453597662
-0.5710666179656982, -0.046587347984313965, 0.47786127761895014, 1791553297483607342
0.7190169095993042, 0.6262754201889038, 0.4761227991081453, 1791553297514548244
-0.5083940625190735, -0.004246354103088379, 0.4759520507842277, 1791553297545683876
-0.17346328496932983, -0.5755376815795898, 0.5517096419000334, 1791553297573496752
0.08582139015197754, 0.18338435888290405, 0.492863703732862, 1791553297603490053
0.24597835540771484, 0.3178423047065735, 0.5129535952554749, 1791553297633425069
-0.16362619400024414, -0.16337454319000244, 0.5167798439509337, 1791553297663416197
-0.26639044284820557, -0.08720368146896362, 0.5080869276491515, 1791553297693393509
-0.19211512804031372, 0.30518704652786255, 0.49489934642795336, 1791553297723405683
-0.08990967273712158, 0.43347305059432983, 0.4725383488021568, 1791553297753939776
0.04122614860534668, 0.2515181303024292, 0.4584535585576819, 1791553297785743481
0.19974589347839355, -0.3106474280357361, 0.5211193479670273, 1791553297813287159
0.059275925159454346, 0.48559021949768066, 0.46685799692818414, 1791553297843229013
-0.5053884387016296, -0.032593369483947754, 0.45792765729115037, 1791553297873195636
0.4080216884613037, 0.21034365892410278, 0.49093403763534416, 1791553297903194023
-0.00140303373336792, 0.4512675404548645, 0.5038396992448527, 1791553297933164086
-0.3560572862625122, -0.029269814491271973, 0.4904209062847181, 1791553297963196504
0.3369770050048828, 0.11557203531265259, 0.5062273633943514, 1791553297993490718
0.1553073525428772, -0.03484576940536499, 0.4717969190161827, 1791553298026100273
-0.3359803557395935, 0.12403619289398193, 0.5862875806622195, 1791553298053096425
-0.32551538944244385, -0.01690453290939331, 0.5191556573132107, 1791553298083048735
0.3716193437576294, 0.3961904048919678, 0.5087130752678171, 1791553298112991059
0.6256535053253174, 0.21238064765930176, 0.5000909228508134, 1791553298142981397
-0.43914830684661865, 0.777587890625, 0.5065208849313245, 1791553298172941366
0.2523844838142395, -0.12603908777236938, 0.5045981168349808, 1791553298202937920
-0.3800877332687378, -0.04884040355682373, 0.4920810844804723, 1791553298233482239
-0.2755873203277588, 0.04206109046936035, 0.48130945387329915, 1791553298264711507
-0.06975418329238892, 0.5171931385993958, 0.538723921641351, 1791553298292906071
-0.47291702032089233, 0.041382014751434326, 0.5143519979494044, 1791553298321799344
0.0706903338432312, -0.0025503039360046387, 0.47561063579543855, 1791553298352706582
-0.17726737260818481, -0.019922256469726562, 0.4630670908061014, 1791553298382744127
-0.017162799835205078, 0.0621454119682312, 0.4586182117663226, 1791553298412739189
0.15309983491897583, 0.6132797598838806, 0.4710532279413104, 1791553298442868376
-0.060137808322906494, 0.3031202554702759, 0.5084705750783939, 1791553298522626593
0.19168835878372192, 0.3768751621246338, 0.483197374036463, 1791553298553431783
0.11266446113586426, -0.08967870473861694, 0.46958938188831634, 1791553298585777274
0.17570817470550537, 0.5974076986312866, 0.5489782814116041, 1791553298613527513
-0.045329749584198, -0.046926796436309814, 0.5040514823135329, 1791553298643176862
-0.5324290990829468, 0.40157246589660645, 0.48035853791978644, 1791553298673285785
-0.5223574638366699, 0.468802809715271, 0.49630113232373824, 1791553298703291834
0.2622353434562683, 0.2739272117614746, 0.5117532183839195, 1791553298733204484
0.3224719166755676, 0.06912851333618164, 0.48933297413656984, 1791553298793841107
-0.37909746170043945, 0.2945849299430847, 0.5064139387877099, 1791553298825260675
0.06944680213928223, -0.18586188554763794, 0.5768760754629173, 1791553298852270668
-0.010943889617919922, 0.0014017820358276367, 0.4306778342450428, 1791553298905429523
-0.11260056495666504, -0.07164651155471802, 0.5487016081946583, 1791553298942260923
0.2522431015968323, -0.1427602767944336, 0.4551340615593078, 1791553299002188743
-0.3344542980194092, 0.06718426942825317, 0.4408606896219775, 1791553299034063241
-0.21439659595489502, 0.37417757511138916, 0.46252052234926044, 1791553299064865015
-0.0007033348083496094, 0.46768999099731445, 0.5371198152184444, 1791553299092191548
0.1320146918296814, 0.224834144115448, 0.497051519642251, 1791553299122111837
0.47112202644348145, -0.10092931985855103, 0.501932664570576, 1791553299152066599
0.30500364303588867, 0.18198424577713013, 0.5014066592177493, 1791553299212141797
0.07425254583358765, 0.32828259468078613, 0.4945293222582442, 1791553299241985394
-0.17848742008209229, 0.2100059986114502, 0.4583016888701261, 1791553299273580781
-0.07750320434570312, 0.2319786548614502, 0.47098016729624226, 1791553299304550538
-0.45185762643814087, -0.06775438785552979, 0.4227922434865818, 1791553299354026496
0.14338278770446777, 0.4329416751861572, 0.5618577723553821, 1791553299381994917
0.08212161064147949, 0.1628643274307251, 0.5373411302966793, 1791553299411755143
0.19669610261917114, 0.1263466477394104, 0.5012484619082179, 1791553299441731992
-0.10198241472244263, 0.1089598536491394, 0.47763601408509265, 1791553299471740240
0.29285043478012085, -0.14043229818344116, 0.4947339566176091, 1791553299501668636
-0.19409942626953125, 0.5046504735946655, 0.49539436870582726, 1791553299531969598
-0.6491492986679077, 0.04601573944091797, 0.48976802965954985, 1791553299562255464
-0.3010694980621338, 0.06679421663284302, 0.45026200126666616, 1791553299593631755
-0.5703611969947815, 0.6111700534820557, 0.49249410875952826, 1791553299621790003
0.48724639415740967, 0.3145841360092163, 0.5035841948321095, 1791553299651497296
0.11682862043380737, 0.2809358239173889, 0.5003455885709355, 1791553299681471947
0.6745465397834778, -0.22153359651565552, 0.4881945566009463, 1791553299711484598
-0.048333585262298584, 0.25004202127456665, 0.5048687668856126, 1791553299741407189
-0.48152631521224976, 0.1340416669845581, 0.499102262169174, 1791553299771501789
-0.7320137619972229, -0.06287276744842529, 0.47399002010820324, 1791553299801577518
-0.1054498553276062, 0.0857204794883728, 0.42367807296180104, 1791553299833572643
0.09578263759613037, 0.3179400563240051, 0.5013152252403549, 1791553299861360631
0.06072676181793213, 0.38818955421447754, 0.47565903012069355, 1791553299891329300
0.5066261291503906, 0.4597724676132202, 0.4763522270553348, 1791553299921401885
0.26206427812576294, 0.18676209449768066, 0.48495670784029066, 1791553299951304097
-0.17875885963439941, -0.24372947216033936, 0.49748351264282314, 1791553299981187569
0.5106577277183533, 0.3076910376548767, 0.49076336333998455, 1791553300011205416
-0.7342730164527893, 0.04147219657897949, 0.47185794518647906, 1791553300041600792
0.29883599281311035, 0.1325499415397644, 0.43857484982500233, 1791553300074299912
-0.30282270908355713, 0.21227043867111206, 0.5147000852378745, 1791553300101156645
0.4721113443374634, 0.15378791093826294, 0.45888787469879855, 1791553300131041025
-0.2251848578453064, 0.379270076751709, 0.46406532601091677, 1791553300161083909
-0.7798705101013184, 0.32214510440826416, 0.474672145883185, 1791553300191037805
-0.09452652931213379, 0.2713002562522888, 0.4926853529901436, 1791553300221123976
0.12721824645996094, 0.4970911145210266, 0.525461352847203, 1791553300250960762
0.5324711799621582, -0.14624029397964478, 0.5101637557810784, 1791553300280573482
-0.32810765504837036, -0.19448834657669067, 0.4354832425877183, 1791553300313580884
-0.2057233452796936, 0.1596108078956604, 0.508923347142441, 1791553300340929303
-0.5386059880256653, 0.277609646320343, 0.44571682086858133, 1791553300370846267
-0.07552415132522583, 0.839502215385437, 0.4589112645789738, 1791553300399802782
0.6208919286727905, 0.16340363025665283, 0.41247467940331894, 1791553300430794539
0.4640529751777649, 0.48187923431396484, 0.43616827404169, 1791553300460741774
0.37645071744918823, 0.029378116130828857, 0.4381334309211809, 1791553300490740376
-0.4270421862602234, -0.04780137538909912, 0.4141212868073302, 1791553300522524460
-0.5303611159324646, 0.2717265486717224, 0.42565144697782, 1791553300553547949
-0.0061615705490112305, 0.07682609558105469, 0.47140669883417535, 1791553300580741755
-0.026248633861541748, -0.055614352226257324, 0.4351068423229962, 1791553300610632510
0.10982340574264526, 0.22777563333511353, 0.43069809233222195, 1791553300640682459
-0.5853891372680664, 0.28221166133880615, 0.43749135650731547, 1791553300669820331
-0.04149484634399414, -0.21869224309921265, 0.4186425188841074, 1791553300700629673
0.34518176317214966, 0.0922471284866333, 0.4549864088860984, 1791553300730588982
0.3805730938911438, 0.3054043650627136, 0.4601192677991355, 1791553300761599209
