acc_x, acc_y, angular_z, stamp, 
-0.001215219497680664, -0.0009447336196899414, 2.7583917391052543e-10, 1791553246722259239
-0.013718605041503906, -0.004530131816864014, -1.994357341385139e-06, 1791553246752142805
-0.001000821590423584, -0.011643946170806885, 1.6055559269535713e-10, 1791553246782126183
0.022214412689208984, -0.006448268890380859, 1.3448073635207322e-10, 1791553246812117505
-0.004866361618041992, -0.017232537269592285, 1.5375480807924648e-10, 1791553246841019537
0.011277377605438232, 0.015489399433135986, -1.9197833807436273e-06, 1791553246872063976
-0.004921019077301025, -0.016534745693206787, 1.3676564838758287e-10, 1791553247101777786
-0.034705281257629395, 0.008756518363952637, -2.0145120664899538e-11, 1791553247161973103
-0.0020792484283447266, -0.006035745143890381, -1.537905267331278e-10, 1791553247191758414
0.014614701271057129, -0.00943845510482788, -1.9392409728553302e-10, 1791553247223012840
-0.0031800270080566406, -0.02916949987411499, -2.660239582093252e-10, 1791553247254388752
-0.003166377544403076, -0.016456902027130127, 2.183919356246632e-06, 1791553247281676377
0.006069600582122803, 0.007106482982635498, -4.5489617513395014e-10, 1791553247311607366
0.01338881254196167, 0.005461633205413818, 1.988356672113595e-06, 1791553247341577060
0.02225351333618164, -0.008776068687438965, -4.2319631775626457e-10, 1791553247371606268
-0.01400303840637207, -0.01764446496963501, -3.618413950188937e-10, 1791553247401619848
-0.019497990608215332, -0.00498044490814209, -3.120434327426911e-10, 1791553247431491834
0.0003287196159362793, 0.0077103376388549805, -3.057895697321598e-10, 1791553247463622326
0.023842453956604004, 0.005848109722137451, -3.0390942277581304e-10, 1791553247494773409
-0.019144058227539062, 0.007660865783691406, -2.8560870703348176e-10, 1791553247521760240
0.012835979461669922, -5.02467155456543e-05, -2.3947528623349795e-10, 1791553247551379774
-0.006580352783203125, 0.014480292797088623, -2.2944996271151076e-10, 1791553247581371579
0.002561032772064209, -0.010909497737884521, -1.4928562790296005e-10, 1791553247641489905
-0.01906263828277588, -0.009199380874633789, 2.001794988360467e-06, 1791553247671263518
-0.0023308992385864258, 0.006601810455322266, -1.9887128399663283e-10, 1791553247751214965
0.0013068914413452148, -0.020577549934387207, -3.31441854523835e-12, 1791553247783358514
-0.0032630562782287598, 0.006662726402282715, 2.189019296892052e-06, 1791553247840542596
0.020296752452850342, -0.016916751861572266, 2.5571872309407676e-06, 1791553247894371269
-0.02319568395614624, -0.004253208637237549, 1.6269506631003214e-06, 1791553247931006282
0.012947440147399902, 0.005063176155090332, -1.7417558561497892e-10, 1791553247991325113
0.023546814918518066, 0.028131842613220215, 1.866652839532091e-06, 1791553248023253994
-0.007073938846588135, 0.008295536041259766, 1.9761759565929322e-06, 1791553248053415052
-0.016014277935028076, 0.020705044269561768, 2.1573503809108208e-06, 1791553248081043851
-0.0032677650451660156, 0.0024767518043518066, 1.9970494611510246e-06, 1791553248110891813
0.03999751806259155, 0.0057048797607421875, 1.977665321162837e-06, 1791553248141034339
-0.01585298776626587, -0.005260169506072998, 1.9872670700979532e-06, 1791553248200800416
-0.03048497438430786, 0.019359230995178223, 3.1422532279305593e-10, 1791553248231189977
0.009384214878082275, 0.021137118339538574, 3.8038372309745614e-10, 1791553248263120322
0.012821197509765625, 0.009989678859710693, 2.1600994926574354e-06, 1791553248290719955
0.014108002185821533, 0.0022289156913757324, 3.977635592274425e-10, 1791553248319883459
0.003293156623840332, -0.010383188724517822, 1.938165415948039e-06, 1791553248350641149
0.005120992660522461, 0.02192521095275879, 2.568444731329521e-10, 1791553248380576792
0.015684187412261963, -0.005477309226989746, 2.0165464211671774e-10, 1791553248440718491
-0.009562909603118896, -0.023516952991485596, 1.9663938180484585e-06, 1791553248471031964
0.03350621461868286, 0.0017417669296264648, 3.906761492144608e-11, 1791553248530697341
0.0003883838653564453, -0.018283188343048096, -1.4431840022893162e-10, 1791553248583228268
-0.019300758838653564, -0.0036098361015319824, -4.224205673433519e-10, 1791553248620369690
0.007766366004943848, 0.01789313554763794, -2.1502435421023487e-10, 1791553248650362435
0.009642422199249268, -0.01092231273651123, -1.626432267366123e-10, 1791553248680541577
-0.010369420051574707, 0.0049346089363098145, -1.9711496396965563e-10, 1791553248711042334
-0.03170865774154663, -0.007511556148529053, -1.5617250699092143e-10, 1791553248743431860
0.011773943901062012, 0.01227182149887085, -8.247813309478504e-12, 1791553248791101224
0.004454195499420166, 0.013582706451416016, -3.905443494862114e-11, 1791553248850174335
-0.03134298324584961, 0.008131086826324463, -1.1455492669594914e-11, 1791553248880186013
-0.000690758228302002, 0.01332545280456543, 3.610017863930451e-11, 1791553248903440659
0.026370465755462646, -0.0012409090995788574, 2.1935336632671996e-06, 1791553248930615387
1.5511937141418457, -0.34010547399520874, -0.044589147044369226, 1791553248990186465
0.9039115309715271, -0.14372843503952026, -0.22616518460904236, 1791553249020508568
0.8915736079216003, -0.07608246803283691, -0.2554294308185983, 1791553249050506749
0.7705094218254089, 0.3201609253883362, -0.2648343703452226, 1791553249080621028
0.8977335691452026, -0.5054078102111816, -0.3524227219584225, 1791553249111471401
0.8527894020080566, -0.43530118465423584, -0.44451576130834003, 1791553249143218779
0.8188279271125793, 0.007517039775848389, -0.586774255021621, 1791553249170855897
1.0818809270858765, -0.573749303817749, -0.6212033975972191, 1791553249223234277
0.6797232031822205, -1.1551239490509033, -0.8083893607676579, 1791553249260410781
1.4053442478179932, -0.03084009885787964, -0.8362017034294312, 1791553249290377749
0.6599701046943665, 0.3943527340888977, -0.9566545113741565, 1791553249319723601
0.1606999635696411, -0.5223630666732788, -0.9044326972328282, 1791553249350879202
-0.09489184617996216, -0.36525267362594604, -0.8248127893857078, 1791553249383210763
-0.218147873878479, 0.08490890264511108, -1.0034495776783627, 1791553249409596100
-0.0058547258377075195, -0.5245096683502197, -0.9038202138584047, 1791553249439657391
-0.15831094980239868, -0.12968504428863525, -0.8889754302834546, 1791553249469592271
-0.40652012825012207, 0.11469727754592896, -0.8721557540514201, 1791553249499526480
0.14881134033203125, -0.6001738905906677, -0.8769874337952359, 1791553249529440463
0.013375997543334961, -0.2070106863975525, -0.843516204869627, 1791553249559504875
-0.07154476642608643, -0.11219513416290283, -0.7920634384797638, 1791553249591141215
-0.16297537088394165, -0.03298217058181763, -0.8407160673402587, 1791553249622084426
0.22875618934631348, -0.3774268627166748, -0.9711821864372986, 1791553249649317582
0.25550317764282227, -0.3295257091522217, -0.8741479942469865, 1791553249679469166
-0.09204095602035522, 0.23486638069152832, -0.875115178603687, 1791553249709350331
0.018871068954467773, -0.5356311798095703, -0.866045250684412, 1791553249739382906
-0.06148499250411987, -0.33519333600997925, -0.9123957784643167, 1791553249768473432
0.3932800889015198, 0.2670183777809143, -0.8720573939489293, 1791553249799303046
-0.2643989324569702, -0.6783284544944763, -0.8272037226301389, 1791553249830336797
-0.044744253158569336, -0.38320547342300415, -0.8145250082177393, 1791553249861505177
-0.23916631937026978, -0.23686230182647705, -0.968037036027675, 1791553249889081405
-0.08548945188522339, -0.0592159628868103, -0.8948054847069389, 1791553249919241038
-0.06261616945266724, -0.16285210847854614, -0.8916333994973358, 1791553249949121838
0.30445098876953125, 0.3514852523803711, -0.8945800419074772, 1791553249979007501
0.3614113926887512, -0.1660008430480957, -0.9172804633272057, 1791553250009005109
0.03196495771408081, -0.656883716583252, -0.9133638763625895, 1791553250039060901
0.021535873413085938, -0.3858456015586853, -0.8488248488465219, 1791553250070926129
-0.22486984729766846, -0.1423206925392151, -0.9499548550148493, 1791553250098973302
0.4276602268218994, -0.30187469720840454, -0.926357481080199, 1791553250127838881
-0.34154242277145386, -0.027417004108428955, -0.8392288143575172, 1791553250158876444
0.18083667755126953, -0.33729368448257446, -0.8887442449702654, 1791553250187826423
-0.3027859926223755, -0.09421485662460327, -0.8354903811000659, 1791553250218751825
-0.1497122049331665, -0.08668661117553711, -0.8540212544729958, 1791553250249091712
-0.2642252445220947, -0.02329319715499878, -0.8417152080743672, 1791553250279311383
0.4862334132194519, 0.015496909618377686, -0.7978963895156063, 1791553250310994371
0.6256729960441589, -0.5308928489685059, -0.9624462381060231, 1791553250337888980
-0.1115189790725708, -0.28961294889450073, -0.8735696964333225, 1791553250368646395
0.28473424911499023, -0.029609739780426025, -0.849156649843564, 1791553250398657053
-0.02709561586380005, -0.3300531506538391, -0.858196303368148, 1791553250428620271
0.5367381572723389, -0.18482953310012817, -0.9028295813242825, 1791553250458568282
-0.3626479506492615, -0.49875009059906006, -0.87250614047789, 1791553250488737584
-0.28619176149368286, -0.4310975670814514, -0.8350945943314536, 1791553250519206021
-0.09255945682525635, 0.13009053468704224, -0.8064847578034056, 1791553250551188857
-0.5621094703674316, 0.09712493419647217, -0.9785346525473071, 1791553250578494542
0.2957168221473694, -0.2764734625816345, -0.8762055796150057, 1791553250608437739
0.13308894634246826, -0.2751390337944031, -0.8739169778612804, 1791553250638411851
0.6875036358833313, -0.2903038263320923, -0.8801693534630202, 1791553250668602408
0.07153546810150146, -0.21685314178466797, -0.9028139898191135, 1791553250728465401
0.7092092633247375, -0.048736572265625, -0.8211542251023067, 1791553250791611800
0.5031107664108276, -0.10161447525024414, -0.8879898101798468, 1791553250858261290
-0.10424625873565674, -0.502480149269104, -0.8804201732078005, 1791553250898349725
-0.03517085313796997, -0.37503141164779663, -0.8614582096576966, 1791553250928333159
-0.11291772127151489, -0.3977102041244507, -0.8494708363545075, 1791553250978376924
-0.012930691242218018, -0.3750378489494324, -0.8382780071248485, 1791553251018058777
-0.12985092401504517, -0.42616933584213257, -0.8462665717561522, 1791553251079175850
0.12591511011123657, -0.23729711771011353, -0.7977932423864208, 1791553251111536392
-0.2578994035720825, 0.11119788885116577, -0.9561790733026023, 1791553251147871519
0.38408994674682617, -0.8530616164207458, -0.8967742738107278, 1791553251177855192
0.14111268520355225, 0.27642887830734253, -0.8160209821935287, 1791553251239860805
-0.30323368310928345, -0.12001001834869385, -0.8734113733662899, 1791553251271082027
0.4392229914665222, -0.3749966621398926, -0.9905840105162582, 1791553251298086427
-0.29532569646835327, -0.02196180820465088, -0.8936095030720816, 1791553251327746524
0.07404619455337524, -0.8645620942115784, -0.8762125484754374, 1791553251387878818
-0.3059878945350647, 0.017473459243774414, -0.891832785156373, 1791553251417708633
0.1324859857559204, 0.22694718837738037, -0.8834843703686452, 1791553251447675782
-0.03437727689743042, -0.4269377589225769, -0.8104034016090187, 1791553251479433737
0.40789997577667236, -0.20141816139221191, -0.8328416276671478, 1791553251511031521
-0.27012431621551514, -0.1285192370414734, -1.0096435696918435, 1791553251537788452
-0.070767343044281, -0.26887696981430054, -0.813566461880198, 1791553251559742544
0.29416424036026, -0.11899715662002563, -0.978263892769502, 1791553251617668301
-0.1114506721496582, -0.45143502950668335, -0.8070880899930807, 1791553251668827018
-0.10041111707687378, -0.010473847389221191, -0.8808637972575063, 1791553251707528543
0.07530355453491211, -0.5954140424728394, -0.8556278254748125, 1791553251767376112
-0.033424437046051025, -0.2555464506149292, -0.7715162212275125, 1791553251799280597
-0.13802367448806763, -0.8661616444587708, -0.8906035301817258, 1791553251879338012
-0.13152402639389038, 0.09017211198806763, -0.8698757451856356, 1791553251909467526
0.1672149896621704, 0.16846132278442383, -0.9579908530695119, 1791553251937159800
-0.7753674983978271, -0.28301751613616943, -0.9217427405313339, 1791553251967133546
-0.11869794130325317, -0.13898932933807373, -0.8811815652399991, 1791553252027090108
0.023921966552734375, -0.5327809453010559, -0.8826901840023688, 1791553252057038633
-0.4968693256378174, -0.502639651298523, -0.9016868101592073, 1791553252086956870
0.24437952041625977, 0.03586918115615845, -0.8331754443637881, 1791553252119101258
-0.31627577543258667, 0.023568809032440186, -0.8379349719882395, 1791553252150224835
-0.26158058643341064, 0.00834888219833374, -0.8769097083272118, 1791553252216932979
0.32318198680877686, -0.02314680814743042, -0.8595593495411739, 1791553252247301750
-0.007596075534820557, -0.2652719020843506, -0.8261106509572064, 1791553252279280743
0.37725627422332764, -0.09377217292785645, -0.94716864655482, 1791553252307244743
0.04890507459640503, -0.46040821075439453, -0.9090476713924781, 1791553252337028422
-0.2703090310096741, -0.08798712491989136, -0.897056710809232, 1791553252366857716
0.005376040935516357, 0.10877525806427002, -0.9001459770175959, 1791553252395829699
0.009500861167907715, -0.17617571353912354, -0.8639661985811211, 1791553252455819871
-0.3307662010192871, -0.010585129261016846, -0.7973943589530632, 1791553252487197703
-0.22938084602355957, -0.31286048889160156, -0.7899356562774081, 1791553252519416383
0.11969941854476929, -0.23764586448669434, -0.9512794422132598, 1791553252546641264
-0.14379900693893433, -0.333759069442749, -0.877022793821102, 1791553252576775794
-0.1791592240333557, 0.1468563675880432, -0.871298091149683, 1791553252606552353
0.15914273262023926, 0.00013244152069091797, -0.8760847688259921, 1791553252636504027
0.08949929475784302, -0.1723618507385254, -0.9113063945645808, 1791553252666688592
0.268640398979187, -0.41338038444519043, -0.910451687049207, 1791553252696421106
-0.24435579776763916, -0.4111216068267822, -0.8713379694270798, 1791553252726964806
0.055924057960510254, -0.3389889597892761, -0.8344400481100689, 1791553252759290854
-0.10664403438568115, -0.44036853313446045, -0.9986129351670364, 1791553252786666041
-0.45846498012542725, -0.13149195909500122, -0.9005554637361433, 1791553252816640977
-0.20369184017181396, 0.07987785339355469, -0.9064391575716806, 1791553252845599148
0.19792789220809937, -0.19657933712005615, -0.8834229272631594, 1791553252936271365
-0.05863022804260254, 0.00850456953048706, -0.8421617067297484, 1791553252967473919
-0.26443588733673096, -0.2392406463623047, -0.8312575105087266, 1791553252999772638
-0.20371007919311523, -0.12665069103240967, -0.9669889460785335, 1791553253036151365
-0.48457324504852295, -0.014614224433898926, -0.8561603876522498, 1791553253066129526
-0.02384573221206665, -0.2849728465080261, -0.8577258812771271, 1791553253096270111
-0.03984498977661133, -0.0572056770324707, -0.832260066792882, 1791553253127040762
0.09741336107254028, -0.3127773404121399, -0.785925972005802, 1791553253159566368
0.007613778114318848, -0.48874157667160034, -0.9448856592108763, 1791553253196109513
0.1424393653869629, -0.13772010803222656, -0.8674130942635112, 1791553253226052484
-0.16427940130233765, 0.1292286515235901, -0.8947095862393585, 1791553253256114349
-0.13687258958816528, 0.02129364013671875, -0.8470358837528073, 1791553253287528411
0.6268323659896851, -0.7054327726364136, -0.820872960344926, 1791553253318219851
-0.12953686714172363, -0.04492497444152832, -0.9366429384379545, 1791553253355989926
0.22346901893615723, -0.7828446626663208, -0.9110935695040022, 1791553253386038135
0.14304518699645996, -0.2822984457015991, -0.8880327391650064, 1791553253416051426
-0.2519593834877014, -0.2698627710342407, -0.8544020842175035, 1791553253447318009
-0.03866720199584961, -0.37849026918411255, -0.8588873859575696, 1791553253478957758
-0.2143673300743103, -0.06050574779510498, -0.9915879139328695, 1791553253505923602
-0.21201872825622559, 0.3082939386367798, -0.8741510303232891, 1791553253535918465
0.10284996032714844, -0.1114431619644165, -0.8833586669749117, 1791553253565905832
-0.002583801746368408, -0.5515503883361816, -0.9301677681541989, 1791553253594876028
0.36073368787765503, -0.2354133129119873, -0.8742051363234931, 1791553253625792400
-0.08578616380691528, 0.06259852647781372, -0.897836571882185, 1791553253654869125
0.019978821277618408, -0.37981313467025757, -0.796801834485862, 1791553253687328529
-0.30802983045578003, -0.38373494148254395, -0.8390859984912068, 1791553253718219719
0.7762291431427002, 0.08791369199752808, -0.942441258454663, 1791553253745773043
-0.303999662399292, -0.4900990128517151, -0.83981592535403, 1791553253775731676
-0.07504963874816895, 0.08678364753723145, -0.7746610016885613, 1791553253797230845
0.16500842571258545, -0.04648679494857788, -0.890461301179768, 1791553253825941171
-0.2179276943206787, -0.44519710540771484, -0.8991538118763034, 1791553253855704716
0.24819374084472656, -0.17521315813064575, -0.8933668175803059, 1791553253885742515
-0.26120424270629883, -0.17753523588180542, -0.8680392836849846, 1791553253915746967
-0.05656158924102783, -0.06641680002212524, -0.8490731699109693, 1791553253945754624
0.07004612684249878, -0.6017880439758301, -0.8661723779543623, 1791553253975952385
-0.011220812797546387, -0.45642924308776855, -0.8405712579472941, 1791553254007092620
-0.3313133716583252, 0.14695298671722412, -0.8511047923510908, 1791553254037264277
-0.3402388095855713, 0.0309525728225708, -0.907640291517921, 1791553254065693186
0.33190691471099854, -0.18644416332244873, -0.8868290452192307, 1791553254095690446
-0.33367645740509033, -0.36495524644851685, -0.8198361530598443, 1791553254117276513
0.1714746356010437, -0.21154898405075073, -0.9118732605657818, 1791553254155653480
0.04044133424758911, -0.6227930784225464, -0.8851466704962333, 1791553254185666691
0.1520894169807434, -0.2633679509162903, -0.8838587498182171, 1791553254215644267
-0.44549036026000977, 0.00557321310043335, -0.8319868842548537, 1791553254247547068
0.04749178886413574, -0.038783371448516846, -1.000287271911327, 1791553254274936242
0.001733541488647461, -0.3434159755706787, -0.9143331195491275, 1791553254304971728
0.04820126295089722, -0.1061403751373291, -0.8815993102429769, 1791553254334886872
-0.6403812170028687, -0.25308942794799805, -0.8559042467727596, 1791553254364845857
-0.19365859031677246, 0.06804734468460083, -0.8631329822946263, 1791553254394777151
-0.15887123346328735, -0.43927478790283203, -0.8620518488004482, 1791553254424943848
0.2860693335533142, -0.22890907526016235, -0.8468310761757595, 1791553254455184135
-0.03164362907409668, -0.024981379508972168, -0.7906682557262381, 1791553254487441000
0.09887832403182983, -0.25795477628707886, -0.9277806088926731, 1791553254514762514
-0.07786422967910767, -0.35675352811813354, -0.8696091072786167, 1791553254544649332
-0.3302624821662903, -0.25260448455810547, -0.8783600612345585, 1791553254574681565
-0.5813952684402466, -0.01993769407272339, -0.8798395287644656, 1791553254604613294
0.08024466037750244, -0.39782649278640747, -0.8773122835269166, 1791553254634610979
-0.06417518854141235, -0.3569190502166748, -0.8871511104683235, 1791553254664529289
-0.6624177694320679, 0.32732611894607544, -0.8462720658698973, 1791553254695693784
0.11264002323150635, -0.18954211473464966, -0.8185236158264955, 1791553254727199091
-0.10015034675598145, -0.45168769359588623, -0.9911859548410106, 1791553254753451259
0.32400041818618774, -0.503424882888794, -0.8547448693993882, 1791553254784468380
-0.2474955916404724, -0.294627845287323, -0.9222505633017491, 1791553254813539118
-0.08297395706176758, -0.4503156542778015, -0.8410743015220127, 1791553254844418506
-0.39482444524765015, -0.43368566036224365, -0.8685325940474135, 1791553254874569724
0.35331398248672485, -0.2646667957305908, -0.9247274337810079, 1791553254904428319
0.24878233671188354, -0.21988505125045776, -0.8851750463985462, 1791553254935707459
0.29487377405166626, 0.09704947471618652, -0.8569921151087159, 1791553254967135649
0.09220099449157715, -0.03496187925338745, -1.010149703300508, 1791553254994250056
-0.02355647087097168, -0.5515009164810181, -0.898692369799448, 1791553255024237998
0.02992147207260132, -0.13744497299194336, -0.8531974913606742, 1791553255054362058
-0.3711422085762024, 0.15495586395263672, -0.8611992613343046, 1791553255084162016
-0.5002491474151611, -0.7477984428405762, -0.8657313841373754, 1791553255114096117
0.12926208972930908, -0.16042709350585938, -0.8291011872407957, 1791553255144114062
-0.171228289604187, 0.18542742729187012, -0.7975887204095481, 1791553255175681192
-0.0068991780281066895, -0.5459873676300049, -0.811532120979682, 1791553255207575468
-0.20008426904678345, -0.24789178371429443, -0.9926145515360233, 1791553255234000001
0.525346040725708, -0.1134498119354248, -0.883859494448085, 1791553255263943591
-0.1464441418647766, -0.12118327617645264, -0.8812060445272848, 1791553255293955439
0.14588934183120728, -0.4468444585800171, -0.8738405006794888, 1791553255323902358
-0.2963144779205322, -0.2773715853691101, -0.8879117928857234, 1791553255353880150
0.15599554777145386, 0.3649504780769348, -0.8993403613465489, 1791553255383868700
0.15574026107788086, -0.5798110365867615, -0.8096803688090022, 1791553255415937167
-0.22599554061889648, -0.2786591649055481, -0.8238054420090601, 1791553255447152386
-0.1958039402961731, -0.4399798512458801, -1.014954742922791, 1791553255473783011
-0.20006847381591797, -0.5184277296066284, -0.9086051502033047, 1791553255503722851
-0.18296223878860474, 0.013478219509124756, -0.8911183916924124, 1791553255533702017
0.007463514804840088, 0.26948046684265137, -0.8906861426134626, 1791553255563698852
0.26608169078826904, -0.3767324686050415, -0.8688920904347671, 1791553255593768523
0.2685421109199524, -0.3291882276535034, -0.8747040859585132, 1791553255623664019
-0.05778604745864868, -0.16709363460540771, -0.8317851408863036, 1791553255656003200
-0.3435322642326355, -0.4175383448600769, -0.8854003488965175, 1791553255686305755
0.179390549659729, -0.5078779458999634, -0.9690796638704727, 1791553255713517961
0.18121349811553955, -0.06812173128128052, -0.8872039459267059, 1791553255742544612
-0.10197538137435913, -0.24504953622817993, -0.8507720059931265, 1791553255773482178
-0.47505491971969604, -0.3540028929710388, -0.8936971425388484, 1791553255803445173
-0.1907314658164978, -0.15662425756454468, -0.8676601379819994, 1791553255833383751
-0.3930164575576782, 0.05678802728652954, -0.8278543447595452, 1791553255863665106
0.07023352384567261, -0.19278228282928467, -0.7961009920302659, 1791553255895379175
0.33072179555892944, -0.2769452929496765, -0.8608576122666941, 1791553255925707807
0.10300964117050171, -0.32978832721710205, -0.94324776075659, 1791553255953280226
0.09810090065002441, -0.2142506241798401, -0.823544216865421, 1791553255983303117
-0.05845439434051514, -0.33991295099258423, -0.8485670848506092, 1791553256013258620
0.4566860795021057, -0.09887105226516724, -0.8873146846756906, 1791553256043186342
-0.044650495052337646, -0.47236835956573486, -0.8839239862277993, 1791553256073472518
0.2410651445388794, -0.6144829392433167, -0.8687807469841272, 1791553256104006110
-0.2666817903518677, 0.09018266201019287, -0.8560209684540587, 1791553256135285340
-0.12149614095687866, -0.08602803945541382, -0.9731061868564426, 1791553256163097983
-0.16051143407821655, -0.04024374485015869, -0.8913068380026576, 1791553256193049152
-0.31548357009887695, 0.0252416729927063, -0.8982535889455844, 1791553256223077918
0.11013853549957275, -0.16239070892333984, -0.8931582562111574, 1791553256253016990
0.1060490608215332, -0.7768365144729614, -0.8962950503283319, 1791553256282965102
-0.6754797697067261, -0.08118283748626709, -0.8580543236516424, 1791553256343553394
0.6170358061790466, -0.12039059400558472, -0.8322267472865159, 1791553256374885570
-0.06991899013519287, -0.20457124710083008, -0.9372520312480205, 1791553256403142413
0.5000067353248596, -0.009209215641021729, -0.8768549836973414, 1791553256432852370
-0.6493258476257324, -0.3944374918937683, -0.8858222589570747, 1791553256461809567
0.12515002489089966, -0.03766673803329468, -0.8581336822567895, 1791553256492798010
-0.11760592460632324, -0.26243042945861816, -0.8935868526860163, 1791553256523111949
0.18362349271774292, -0.2965925335884094, -0.8239865382794748, 1791553256583724081
0.3064497709274292, -0.2652011513710022, -0.8081292123702295, 1791553256616060073
0.10561645030975342, -0.2354336380958557, -0.9762073668848359, 1791553256642699985
-0.339908242225647, -0.3505491614341736, -0.8705144725448112, 1791553256671819113
-0.14011341333389282, 0.04013872146606445, -0.8262772060138167, 1791553256702779972
0.044473230838775635, -0.07646089792251587, -0.8924765965612333, 1791553256731615026
0.23663675785064697, -0.6866759061813354, -0.8262818281414126, 1791553256762515733
-0.14214110374450684, 0.13901150226593018, -0.8529385035266887, 1791553256792588547
0.14260989427566528, 0.20334845781326294, -0.8563312860262677, 1791553256823498437
-0.49558019638061523, -0.22725331783294678, -0.8267989783769932, 1791553256856007970
0.5596840381622314, 0.13111072778701782, -1.0102574453195006, 1791553256882546890
0.4536353349685669, -0.11208748817443848, -0.894355924487261, 1791553256912793733
0.21282905340194702, -0.43742454051971436, -0.9033513503868532, 1791553256942401103
-0.363328754901886, -0.577214777469635, -0.8793536098230117, 1791553256972310755
-0.15353810787200928, -0.47203654050827026, -0.8640455461694709, 1791553257042477883
0.037531375885009766, -0.004788219928741455, -0.871320656627118, 1791553257082206446
-0.0001819133758544922, -0.3322042226791382, -0.8372897171998053, 1791553257143333595
0.286262571811676, 0.09445047378540039, -0.8320791843625261, 1791553257174920746
-0.2832332253456116, -0.35925304889678955, -0.9913083191043389, 1791553257202425061
0.08421874046325684, -0.26019471883773804, -0.8922793483160557, 1791553257232314014
0.14954447746276855, 0.28138989210128784, -0.9802670634454754, 1791553257282260350
0.2774538993835449, -0.5749944448471069, -0.892349021795301, 1791553257312150403
-0.4764111042022705, -0.5050321221351624, -0.8634146238297591, 1791553257341953707
0.5754170417785645, 0.08695507049560547, -0.82282825436844, 1791553257371975127
0.37844282388687134, -0.33007413148880005, -0.8774999847930195, 1791553257431927577
-0.21718961000442505, -0.32778656482696533, -0.8552614658096803, 1791553257463525253
0.273257315158844, -0.19069147109985352, -0.8484873456537343, 1791553257494891888
0.09048759937286377, -0.1287946105003357, -0.9281937417221441, 1791553257522209166
-0.03130459785461426, -0.04224598407745361, -0.8915147496849944, 1791553257551798323
0.2815924286842346, -0.07703739404678345, -0.9000534219705217, 1791553257581890835
0.2537927031517029, -0.3594556450843811, -0.8846126985687099, 1791553257641686627
0.26489198207855225, -0.3989860415458679, -0.8658041747209302, 1791553257702851388
-0.6410879492759705, -0.1483660340309143, -0.858475612023601, 1791553257734181657
-0.21234840154647827, -0.37855249643325806, -0.8847520095198411, 1791553257801534396
0.4420626759529114, -0.043199777603149414, -0.8834127404696916, 1791553257831954012
-0.17066890001296997, -0.23071235418319702, -0.8290511038822784, 1791553257863688534
-0.3621160387992859, -0.1712127923965454, -0.8400153434696694, 1791553257894368766
-0.40004539489746094, -0.2012278437614441, -0.9587003981548634, 1791553257921553675
-0.3176383376121521, -0.19132095575332642, -0.8697130768765364, 1791553257951416510
-0.44031381607055664, -0.03903388977050781, -0.8428074823956516, 1791553257981605450
0.22497504949569702, -0.19254076480865479, -0.8709284669785925, 1791553258011354163
-0.17095822095870972, -0.31404590606689453, -0.8912589385728297, 1791553258041292490
0.3016510009765625, -0.012331247329711914, -0.8507046718590573, 1791553258071797679
-0.2598501443862915, -0.22606796026229858, -0.8160104459386448, 1791553258103450771
-0.05240035057067871, -0.22374719381332397, -0.9445777317214876, 1791553258131488834
0.20894044637680054, -0.5123167634010315, -0.8947321925750195, 1791553258161179668
-0.037850141525268555, -0.523216187953949, -0.8570948202342377, 1791553258191206100
-0.3978251814842224, 0.23016011714935303, -0.8734273089709664, 1791553258221145116
-0.6189144253730774, 0.12443125247955322, -0.8887777310687741, 1791553258251343917
0.13544660806655884, -0.4913889169692993, -0.8722652187318459, 1791553258311557186
-0.17513471841812134, -0.20138782262802124, -0.8288723422368066, 1791553258343863052
-0.078075110912323, -0.56302809715271, -0.9961757410856065, 1791553258371079234
-0.2784551978111267, -0.2451338768005371, -0.8981322741919472, 1791553258401223788
0.22739839553833008, 0.018518507480621338, -0.9050566641165578, 1791553258430976146
-0.006975948810577393, -0.03844708204269409, -0.8888315854129847, 1791553258460921141
0.13279056549072266, -0.2838709354400635, -0.8866034180835226, 1791553258490913709
-0.6451172232627869, -0.1760973334312439, -0.8445794061719428, 1791553258551464453
-0.1655300259590149, -0.08677732944488525, -0.8026026267207266, 1791553258583583352
0.03655797243118286, -0.1247023344039917, -0.8610866668912843, 1791553258640864724
0.03711599111557007, -0.387903094291687, -0.8443861734657748, 1791553258670766644
-0.13365715742111206, -0.19118058681488037, -0.8765857058627027, 1791553258699719587
-0.4522264003753662, 0.17615371942520142, -0.8469992997435445, 1791553258730648523
0.2253139615058899, -0.6317354440689087, -0.847476038408084, 1791553258760886845
-0.12937647104263306, -0.14049917459487915, -0.82252933784522, 1791553258791788063
-0.14208078384399414, 0.1482442021369934, -0.8398698880739242, 1791553258823579284
-0.2096729278564453, -0.8160832524299622, -0.9838164782622892, 1791553258850775305
-0.1350523829460144, -0.30339592695236206, -0.8542221606648454, 1791553258880777296
0.07257789373397827, -0.1415092945098877, -0.7517211586445354, 1791553258903616682
0.16086947917938232, -0.389983594417572, -1.0051680039677757, 1791553258929991024
-0.36412185430526733, 0.19163167476654053, -0.752077726473031, 1791553258983668333
0.3119673728942871, -0.07963055372238159, -0.954035635363709, 1791553259020928107
0.018550455570220947, 0.09545540809631348, -0.9025355229836504, 1791553259090972306
-0.19029784202575684, -0.28171002864837646, -0.8950558640703985, 1791553259130936191
0.04392731189727783, -0.23801708221435547, -0.8853691216121968, 1791553259160906372
0.08017963171005249, -0.07551175355911255, -0.8872013211037562, 1791553259191652442
-0.16376733779907227, -0.3552507162094116, -0.9622993646392329, 1791553259250610902
0.01257246732711792, 0.01126033067703247, -0.8667528219734026, 1791553259280130681
-0.31228649616241455, -0.2747872471809387, -0.7516351600161334, 1791553259303049901
-0.18481236696243286, 0.12881779670715332, -0.8459730901727064, 1791553259370092269
0.2273978590965271, -0.2680051326751709, -0.8664213177215216, 1791553259400052336
0.11574423313140869, -0.11291873455047607, -0.8381391963051159, 1791553259462701216
-0.4780595302581787, -0.5555566549301147, -0.8141882905213687, 1791553259543004640
-0.23972159624099731, 0.2435894012451172, -0.9451472238096912, 1791553259579866885
-0.3253989815711975, 0.004460275173187256, -0.8856275253681254, 1791553259640195924
0.7441459894180298, -0.11649292707443237, -0.8729666576059734, 1791553259670414764
-0.38853520154953003, -0.5179848670959473, -0.814855460089078, 1791553259702323352
-0.11238187551498413, -0.4555673599243164, -0.96493105420856, 1791553259729736954
0.011251688003540039, -0.043368637561798096, -0.7933680138446739, 1791553259781728407
0.5344633460044861, -0.038169026374816895, -0.8949349527575136, 1791553259849621669
0.24526435136795044, -0.1943104863166809, -0.8831097997089056, 1791553259880089135
-0.07301783561706543, -0.44539105892181396, -0.8376972947732347, 1791553259911467614
-0.08607512712478638, -0.4214228391647339, -0.9246606495230865, 1791553259939727323
0.03978538513183594, 0.001983463764190674, -0.8680423752116582, 1791553259969731254
0.44729083776474, -0.4601061940193176, -0.8852588361393335, 1791553259999440075
-0.311725378036499, -0.24005264043807983, -0.8752343507895505, 1791553260029378486
-0.2845619320869446, -0.14253300428390503, -0.8320889001947352, 1791553260089555423
0.16467297077178955, -0.09777021408081055, -0.867809705906926, 1791553260159304852
0.02400451898574829, -0.3609844446182251, -0.851616001879859, 1791553260189287893
0.11695235967636108, -0.12424355745315552, -0.8852176320976612, 1791553260219245389
-0.24662339687347412, -0.29399573802948, -0.901900307813402, 1791553260249179247
-0.1206895112991333, 0.06447345018386841, -0.8112451663354913, 1791553260311786475
0.058757662773132324, -0.061899542808532715, -1.0145125389777292, 1791553260339215252
-0.10618633031845093, -0.4310063123703003, -0.9171191910562301, 1791553260369046932
0.23154449462890625, -0.4065060615539551, -0.8744275196546213, 1791553260399069816
-0.1502162218093872, -0.3218165636062622, -0.8681486065163972, 1791553260429036234
-0.03458923101425171, -0.2593078017234802, -0.8962308978285127, 1791553260459040798
-0.1675075888633728, -0.19892728328704834, -0.8989448629619724, 1791553260489231704
-0.12795323133468628, -0.010123074054718018, -0.8589233382203729, 1791553260519887063
0.11594605445861816, 0.09477299451828003, -0.8359087885048935, 1791553260551457216
-0.1476224660873413, -0.44282978773117065, -0.9888685683959341, 1791553260578906522
-0.13396835327148438, -0.5585352778434753, -0.8882705529309098, 1791553260608845590
-0.472375750541687, 0.11753904819488525, -0.8690400088908354, 1791553260638850676
0.6180790066719055, -0.1334460973739624, -0.875497044371096, 1791553260668799807
-0.3022523522377014, -0.5532456636428833, -0.8768534634851557, 1791553260698735195
0.7701998353004456, -0.07846158742904663, -0.8633439136322787, 1791553260729004912
-0.2644733190536499, -0.11895424127578735, -0.8634022938104731, 1791553260758992895
-0.1029510498046875, -0.3476719856262207, -0.7749745914168775, 1791553260791485339
-0.4716451168060303, -0.042278170585632324, -0.9149185593333234, 1791553260819029275
0.054004669189453125, -0.2278517484664917, -0.861981814066422, 1791553260848757198
-0.28341811895370483, -0.41804730892181396, -0.8667306116970176, 1791553260877804337
-0.14647573232650757, 0.12059706449508667, -0.8222788589194315, 1791553260908660657
-0.3089422583580017, -0.28504711389541626, -0.8949767389139848, 1791553260938506931
-0.32395124435424805, -0.16131198406219482, -0.8828732563875381, 1791553260968528157
0.1365179419517517, 0.08621388673782349, -0.8355629923643094, 1791553260999496742
-0.09509360790252686, 0.03629791736602783, -0.8167252271717956, 1791553261032246857
0.28637850284576416, -0.8719453811645508, -1.036904823912698, 1791553261058474990
-0.15200376510620117, -0.3622552752494812, -0.8958457769088989, 1791553261088362590
0.16296809911727905, -0.14433801174163818, -0.9060299128980092, 1791553261118385432
-0.40626513957977295, -0.3434085249900818, -0.9200822118680719, 1791553261148310744
-0.32021355628967285, 0.06910794973373413, -0.8979064166374418, 1791553261178281235
-0.14393079280853271, 0.06439262628555298, -0.883317345740549, 1791553261208317016
0.09008526802062988, -0.19595927000045776, -0.8494906308066169, 1791553261239503028
-0.44892674684524536, -0.3862374424934387, -0.8242286245383458, 1791553261271636272
